// Photon energy k / E0
0.0 0.1 0.2 0.3 0.4 0.5 0.6 0.7 0.8 0.9 0.95 0.97 0.99 1.0 -1.0

// Electron energy - cross sections differential in energy ds/dk, (beta / Z)**2 * k * (ds/dk) - total cross section
0.001 1.179 1.268 1.360 1.454 1.549 1.641 1.731 1.817 1.893 1.956 1.982 1.994 2.013 2.023 1.405
0.002 1.920 2.038 2.155 2.271 2.381 2.484 2.579 2.670 2.752 2.826 2.857 2.866 2.879 2.890 2.124
0.005 3.365 3.560 3.705 3.803 3.872 3.933 3.988 4.041 4.089 4.136 4.164 4.176 4.186 4.183 3.375
0.01 4.758 4.959 5.081 5.126 5.113 5.069 5.027 5.027 5.014 5.001 5.009 5.012 5.014 5.012 4.384
0.02 6.241 6.411 6.373 6.249 6.106 5.969 5.831 5.720 5.618 5.540 5.496 5.479 5.467 5.476 5.250
0.05 8.254 8.016 7.651 7.218 6.803 6.466 6.196 5.964 5.751 5.546 5.447 5.408 5.372 5.366 5.998
0.1 9.739 8.899 8.135 7.459 6.865 6.356 5.923 5.564 5.274 4.990 4.855 4.817 4.770 4.722 6.264
0.2 10.78 9.405 8.241 7.266 6.457 5.792 5.234 4.748 4.333 3.963 3.788 3.718 3.655 3.636 6.280
0.5 11.75 9.591 7.955 6.693 5.700 4.890 4.204 3.591 3.054 2.586 2.380 2.305 2.231 2.192 6.311
1.0 12.32 9.809 7.993 6.622 5.537 4.639 3.875 3.202 2.608 2.073 1.824 1.732 1.645 1.604 6.847
2.0 12.74 10.17 8.344 6.952 5.840 4.915 4.113 3.376 2.702 2.040 1.691 1.545 1.409 1.344 7.925
3.0 12.90 10.35 8.599 7.246 6.152 5.230 4.424 3.677 2.953 2.180 1.732 1.530 1.330 1.254 8.689
4.0 12.88 10.50 8.818 7.474 6.383 5.483 4.699 3.953 3.201 2.336 1.804 1.559 1.296 1.204 9.257
5.0 12.89 10.57 8.955 7.651 6.586 5.702 4.928 4.185 3.419 2.492 1.885 1.598 1.282 1.170 9.692
6.0 12.89 10.62 9.061 7.792 6.752 5.884 5.122 4.386 3.614 2.639 1.970 1.645 1.279 1.145 10.04
8.0 12.85 10.69 9.219 8.012 7.012 6.173 5.434 4.720 3.954 2.902 2.128 1.742 1.305 1.110 10.58
10.0 12.81 10.73 9.330 8.171 7.206 6.393 5.678 4.988 4.235 3.142 2.286 1.846 1.334 1.086 10.99
15.0 12.75 10.79 9.504 8.428 7.528 6.772 6.110 5.475 4.769 3.639 2.651 2.104 1.429 1.052 11.69
20.0 12.78 10.85 9.595 8.563 7.713 7.009 6.397 5.802 5.136 4.069 3.002 2.347 1.508 1.034 12.16
30.0 12.69 10.87 9.724 8.768 7.976 7.324 6.772 6.259 5.688 4.637 3.508 2.780 1.740 1.014 12.77
40.0 12.67 10.90 9.792 8.875 8.122 7.512 7.007 6.548 6.047 5.078 3.938 3.148 1.935 1.004 13.16
50.0 12.67 10.92 9.836 8.945 8.220 7.640 7.170 6.753 6.308 5.420 4.294 3.466 2.117 0.997 13.44
60.0 12.64 10.94 9.879 9.001 8.287 7.726 7.288 6.915 6.495 5.672 4.628 3.796 2.292 0.993 13.66
80.0 12.65 10.96 9.919 9.068 8.384 7.853 7.448 7.123 6.809 6.080 5.090 4.274 2.623 0.988 13.97
100.0 12.63 10.97 9.949 9.114 8.446 7.934 7.555 7.270 7.016 6.378 5.451 4.647 2.910 0.984 14.18
200.0 12.59 11.00 10.02 9.211 8.579 8.112 7.795 7.604 7.512 7.172 6.485 5.786 3.966 0.978 14.72
500.0 12.40 11.03 10.06 9.277 8.666 8.229 7.958 7.847 7.864 7.852 7.519 7.078 5.563 0.974 15.16
1000.0 12.30 11.03 10.08 9.299 8.697 8.271 8.019 7.933 7.999 8.131 8.035 7.755 6.588 0.972 15.36
2000.0 12.24 11.04 10.08 9.310 8.713 8.294 8.050 7.979 8.072 8.283 8.335 8.218 7.435 0.972 15.48
5000.0 12.22 11.04 10.08 9.314 8.723 8.309 8.066 7.993 8.129 8.388 8.518 8.532 8.199 0.971 15.56
10000.0 12.19 11.04 10.09 9.319 8.726 8.312 8.075 8.016 8.132 8.415 8.596 8.651 8.511 0.971 15.60