// Photon energy k / E0
0.0 0.1 0.2 0.3 0.4 0.5 0.6 0.7 0.8 0.9 0.95 0.97 0.99 1.0 -1.0

// Electron energy - cross sections differential in energy ds/dk, (beta / Z)**2 * k * (ds/dk) - total cross section
0.001 1.988 2.095 2.196 2.290 2.376 2.456 2.533 2.611 2.694 2.772 2.809 2.828 2.853 2.866 2.111
0.002 2.950 3.080 3.185 3.264 3.327 3.384 3.440 3.503 3.578 3.664 3.705 3.718 3.731 3.737 2.920
0.005 4.611 4.780 4.863 4.871 4.841 4.810 4.784 4.769 4.765 4.776 4.786 4.788 4.791 4.792 4.160
0.01 6.020 6.170 6.182 6.083 5.941 5.811 5.696 5.587 5.479 5.384 5.348 5.335 5.323 5.317 5.055
0.02 7.389 7.456 7.255 6.975 6.699 6.458 6.239 6.034 5.831 5.636 5.542 5.507 5.475 5.458 5.720
0.05 9.109 8.675 8.103 7.478 6.904 6.451 6.097 5.804 5.521 5.235 5.094 5.035 4.983 4.957 6.078
0.1 10.34 9.197 8.193 7.334 6.603 5.995 5.485 5.059 4.708 4.375 4.219 4.169 4.112 4.083 6.023
0.2 11.15 9.418 8.014 6.885 5.981 5.257 4.648 4.101 3.635 3.237 3.056 2.989 2.931 2.903 5.830
0.5 12.06 9.515 7.694 6.345 5.302 4.446 3.721 3.084 2.527 2.034 1.818 1.743 1.676 1.646 5.880
1.0 12.78 9.845 7.841 6.391 5.267 4.340 3.551 2.855 2.242 1.679 1.413 1.315 1.227 1.186 6.539
2.0 13.45 10.40 8.389 6.906 5.741 4.772 3.931 3.163 2.459 1.758 1.386 1.232 1.087 1.016 7.810
3.0 13.74 10.75 8.819 7.361 6.187 5.191 4.324 3.536 2.777 1.957 1.484 1.272 1.058 0.964 8.736
4.0 13.78 11.02 9.179 7.711 6.515 5.524 4.665 3.863 3.067 2.156 1.596 1.339 1.056 0.935 9.430
5.0 13.86 11.17 9.405 7.975 6.795 5.807 4.944 4.136 3.322 2.344 1.706 1.404 1.064 0.915 9.963
6.0 13.91 11.28 9.577 8.182 7.021 6.041 5.181 4.372 3.549 2.518 1.813 1.471 1.076 0.900 10.39
8.0 13.94 11.42 9.824 8.494 7.370 6.409 5.563 4.768 3.941 2.825 2.005 1.596 1.123 0.878 11.05
10.0 13.95 11.51 9.989 8.710 7.622 6.688 5.862 5.084 4.263 3.099 2.190 1.720 1.166 0.863 11.54
15.0 14.01 11.64 10.22 9.023 8.012 7.149 6.385 5.652 4.863 3.693 2.628 2.012 1.264 0.842 12.38
20.0 13.99 11.69 10.34 9.212 8.259 7.449 6.737 6.054 5.306 4.126 2.989 2.296 1.388 0.830 12.92
30.0 13.92 11.72 10.47 9.430 8.555 7.822 7.191 6.597 5.936 4.771 3.551 2.766 1.632 0.817 13.61
40.0 13.91 11.74 10.54 9.540 8.716 8.040 7.470 6.941 6.352 5.263 4.024 3.168 1.845 0.811 14.05
50.0 13.91 11.74 10.59 9.627 8.817 8.163 7.657 7.198 6.650 5.620 4.440 3.557 2.058 0.807 14.36
60.0 13.88 11.76 10.62 9.671 8.893 8.275 7.794 7.379 6.891 5.922 4.761 3.864 2.255 0.804 14.60
80.0 13.87 11.78 10.66 9.737 8.997 8.423 7.981 7.618 7.248 6.392 5.272 4.376 2.606 0.800 14.95
100.0 13.85 11.80 10.69 9.787 9.067 8.516 8.105 7.787 7.488 6.734 5.672 4.781 2.914 0.798 15.19
200.0 13.76 11.85 10.79 9.914 9.227 8.720 8.381 8.181 8.041 7.638 6.847 6.049 4.055 0.794 15.81
500.0 13.47 11.87 10.83 9.984 9.326 8.855 8.564 8.442 8.454 8.427 8.033 7.504 5.784 0.791 16.30
1000.0 13.32 11.88 10.85 10.01 9.362 8.904 8.633 8.540 8.609 8.743 8.622 8.298 6.943 0.790 16.52
2000.0 13.23 11.88 10.86 10.02 9.382 8.930 8.667 8.593 8.690 8.922 8.958 8.784 7.935 0.790 16.66
5000.0 13.18 11.88 10.85 10.03 9.392 8.947 8.687 8.610 8.757 9.035 9.172 9.182 8.800 0.790 16.76
10000.0 13.13 11.88 10.86 10.03 9.397 8.951 8.696 8.635 8.762 9.067 9.263 9.303 9.140 0.789 16.80